Typical Measured Spectrum of Semrock FF596-Di01 Optical Filter	
For wavelengths between 320 and 1120 nm, values near or below 3e-7 (Optical Density 6.5) are measurement noise limited.
For wavelengths < 320 nm and > 1120 nm, values near or below 3e-6 (Optical Density 5.5) are measurement noise limited. 
Data format:  Wavelength (nm) <tab> Transmission (0 to 1)
345.0	0.00363
345.2	0.00387
345.4	0.00426
345.6	0.00467
345.8	0.00525
346.0	0.00501
346.2	0.00487
346.4	0.00456
346.6	0.00381
346.8	0.00315
347.0	0.00258
347.2	0.00256
347.4	0.00269
347.6	0.00278
347.8	0.00307
348.0	0.0032
348.2	0.00308
348.4	0.00303
348.6	0.00262
348.8	0.00214
349.0	0.00187
349.2	0.00158
349.4	0.00161
349.6	0.00158
349.8	0.00183
350.0	0.00194
350.2	0.00181
350.4	0.00171
350.6	0.00164
350.8	0.00151
351.0	0.00137
351.2	0.00129
351.4	0.00129
351.6	0.00121
351.8	0.00133
352.0	0.00131
352.2	0.00127
352.4	0.00147
352.6	0.00139
352.8	0.00134
353.0	0.00132
353.2	0.0013
353.4	0.00122
353.6	0.00117
353.8	0.00105
354.0	0.00107
354.2	0.00113
354.4	0.00116
354.6	0.00112
354.8	0.00105
355.0	0.00108
355.2	0.00109
355.4	8.9196e-04
355.6	9.5707e-04
355.8	8.6182e-04
356.0	8.7928e-04
356.2	8.9566e-04
356.4	9.004e-04
356.6	9.4945e-04
356.8	9.2987e-04
357.0	9.5907e-04
357.2	9.3178e-04
357.4	9.263e-04
357.6	8.732e-04
357.8	9.2e-04
358.0	9.1963e-04
358.2	8.9948e-04
358.4	9.1243e-04
358.6	8.7737e-04
358.8	0.00102
359.0	9.2534e-04
359.2	9.3086e-04
359.4	9.5256e-04
359.6	9.8369e-04
359.8	8.0522e-04
360.0	7.8576e-04
360.2	8.7133e-04
360.4	9.2378e-04
360.6	8.8253e-04
360.8	8.5158e-04
361.0	8.4965e-04
361.2	8.0116e-04
361.4	8.8345e-04
361.6	8.6022e-04
361.8	9.5624e-04
362.0	8.7503e-04
362.2	9.6001e-04
362.4	9.7826e-04
362.6	0.00104
362.8	0.00107
363.0	0.00109
363.2	0.00124
363.4	0.00121
363.6	0.00114
363.8	0.00133
364.0	0.00127
364.2	0.00128
364.4	0.00117
364.6	0.00107
364.8	0.00117
365.0	9.6492e-04
365.2	6.2569e-04
365.4	6.1993e-04
365.6	6.8664e-04
365.8	6.6227e-04
366.0	6.6787e-04
366.2	6.4318e-04
366.4	7.0239e-04
366.6	6.3303e-04
366.8	6.0854e-04
367.0	7.6368e-04
367.2	0.00115
367.4	0.00252
367.6	0.00412
367.8	0.00528
368.0	0.00609
368.2	0.00654
368.4	0.00686
368.6	0.00679
368.8	0.00687
369.0	0.00624
369.2	0.00612
369.4	0.00621
369.6	0.00672
369.8	0.00707
370.0	0.00751
370.2	0.00735
370.4	0.00722
370.6	0.00705
370.8	0.00694
371.0	0.00692
371.2	0.00737
371.4	0.00765
371.6	0.00842
371.8	0.00866
372.0	0.00909
372.2	0.00956
372.4	0.01026
372.6	0.01126
372.8	0.01244
373.0	0.01398
373.2	0.01547
373.4	0.01624
373.6	0.01629
373.8	0.01587
374.0	0.01462
374.2	0.01306
374.4	0.01088
374.6	0.00891
374.8	0.00731
375.0	0.00605
375.2	0.00524
375.4	0.00456
375.6	0.00405
375.8	0.00343
376.0	0.00302
376.2	0.00265
376.4	0.00228
376.6	0.00199
376.8	0.00178
377.0	0.00164
377.2	0.00157
377.4	0.00146
377.6	0.00135
377.8	0.00138
378.0	0.0013
378.2	0.00129
378.4	0.00129
378.6	0.00113
378.8	0.00116
379.0	0.00107
379.2	0.00106
379.4	0.001
379.6	9.348e-04
379.8	9.4065e-04
380.0	0.00102
380.2	9.4731e-04
380.4	9.1314e-04
380.6	0.00102
380.8	0.00102
381.0	0.00109
381.2	0.00113
381.4	0.00118
381.6	0.00123
381.8	0.00125
382.0	0.00128
382.2	0.00135
382.4	0.00147
382.6	0.00146
382.8	0.00146
383.0	0.00151
383.2	0.00157
383.4	0.00162
383.6	0.00154
383.8	0.00166
384.0	0.00169
384.2	0.00174
384.4	0.00179
384.6	0.0019
384.8	0.00201
385.0	0.00217
385.2	0.00237
385.4	0.00254
385.6	0.00263
385.8	0.00302
386.0	0.00339
386.2	0.00405
386.4	0.0048
386.6	0.0059
386.8	0.0072
387.0	0.00853
387.2	0.01002
387.4	0.01144
387.6	0.01261
387.8	0.01361
388.0	0.01408
388.2	0.01458
388.4	0.01424
388.6	0.01402
388.8	0.01345
389.0	0.01264
389.2	0.01149
389.4	0.01069
389.6	0.00958
389.8	0.00852
390.0	0.00773
390.2	0.00705
390.4	0.00641
390.6	0.00608
390.8	0.00583
391.0	0.00584
391.2	0.00585
391.4	0.00593
391.6	0.00612
391.8	0.00614
392.0	0.00633
392.2	0.0065
392.4	0.00628
392.6	0.0062
392.8	0.00595
393.0	0.00563
393.2	0.00568
393.4	0.00551
393.6	0.00555
393.8	0.00553
394.0	0.00582
394.2	0.0061
394.4	0.00619
394.6	0.00652
394.8	0.00688
395.0	0.00675
395.2	0.00679
395.4	0.00683
395.6	0.00665
395.8	0.0063
396.0	0.00619
396.2	0.00584
396.4	0.00597
396.6	0.00587
396.8	0.00574
397.0	0.00581
397.2	0.00585
397.4	0.00581
397.6	0.0055
397.8	0.00513
398.0	0.00484
398.2	0.00456
398.4	0.004
398.6	0.00356
398.8	0.00302
399.0	0.0026
399.2	0.00248
399.4	0.00231
399.6	0.00213
399.8	0.00187
400.0	0.00202
400.2	0.00188
400.4	0.00174
400.6	0.00153
400.8	0.00165
401.0	0.0017
401.2	0.00157
401.4	0.0013
401.6	0.00106
401.8	0.00122
402.0	0.00106
402.2	0.00114
402.4	9.7447e-04
402.6	8.9834e-04
402.8	8.641e-04
403.0	8.8806e-04
403.2	9.8351e-04
403.4	8.4166e-04
403.6	9.1298e-04
403.8	9.1832e-04
404.0	0.00105
404.2	0.00102
404.4	0.0011
404.6	0.00103
404.8	9.8811e-04
405.0	0.00109
405.2	0.00115
405.4	0.00108
405.6	0.00109
405.8	0.0011
406.0	9.4818e-04
406.2	8.9016e-04
406.4	7.984e-04
406.6	9.317e-04
406.8	9.4386e-04
407.0	0.00108
407.2	9.9733e-04
407.4	0.00109
407.6	0.00118
407.8	0.00127
408.0	0.00134
408.2	0.00133
408.4	0.00135
408.6	0.00135
408.8	0.0015
409.0	0.00137
409.2	0.00141
409.4	0.00125
409.6	0.00136
409.8	0.00131
410.0	0.00129
410.2	0.0012
410.4	0.00126
410.6	0.00127
410.8	0.00129
411.0	0.00143
411.2	0.00157
411.4	0.00177
411.6	0.00196
411.8	0.00212
412.0	0.00239
412.2	0.00263
412.4	0.00292
412.6	0.00304
412.8	0.00316
413.0	0.00329
413.2	0.0034
413.4	0.0034
413.6	0.00345
413.8	0.00345
414.0	0.00351
414.2	0.00359
414.4	0.0037
414.6	0.00393
414.8	0.0042
415.0	0.00456
415.2	0.00507
415.4	0.00574
415.6	0.00631
415.8	0.00688
416.0	0.00743
416.2	0.00792
416.4	0.00852
416.6	0.00894
416.8	0.00913
417.0	0.00936
417.2	0.00939
417.4	0.00968
417.6	0.00956
417.8	0.00984
418.0	0.01005
418.2	0.01064
418.4	0.01118
418.6	0.01184
418.8	0.01265
419.0	0.01333
419.2	0.01386
419.4	0.0143
419.6	0.01425
419.8	0.01433
420.0	0.01398
420.2	0.01346
420.4	0.01262
420.6	0.01185
420.8	0.01101
421.0	0.01027
421.2	0.00951
421.4	0.00902
421.6	0.00863
421.8	0.00843
422.0	0.00833
422.2	0.00825
422.4	0.00836
422.6	0.00841
422.8	0.00837
423.0	0.0083
423.2	0.00825
423.4	0.00793
423.6	0.00757
423.8	0.0072
424.0	0.00684
424.2	0.00635
424.4	0.00581
424.6	0.00537
424.8	0.00493
425.0	0.00467
425.2	0.00434
425.4	0.00408
425.6	0.00391
425.8	0.00388
426.0	0.00382
426.2	0.00388
426.4	0.00387
426.6	0.00391
426.8	0.004
427.0	0.00404
427.2	0.00411
427.4	0.00404
427.6	0.00399
427.8	0.00392
428.0	0.00375
428.2	0.00356
428.4	0.00343
428.6	0.00326
428.8	0.00311
429.0	0.00285
429.2	0.00276
429.4	0.0026
429.6	0.00258
429.8	0.00257
430.0	0.00253
430.2	0.00253
430.4	0.00255
430.6	0.00274
430.8	0.0028
431.0	0.00286
431.2	0.00301
431.4	0.00314
431.6	0.00329
431.8	0.0034
432.0	0.00354
432.2	0.00353
432.4	0.00361
432.6	0.00362
432.8	0.00358
433.0	0.00348
433.2	0.00341
433.4	0.00335
433.6	0.00316
433.8	0.00304
434.0	0.00297
434.2	0.00288
434.4	0.00276
434.6	0.00272
434.8	0.00266
435.0	0.0026
435.2	0.00275
435.4	0.00275
435.6	0.00293
435.8	0.00312
436.0	0.00346
436.2	0.00375
436.4	0.00423
436.6	0.00487
436.8	0.00547
437.0	0.00611
437.2	0.00677
437.4	0.00738
437.6	0.00783
437.8	0.00815
438.0	0.00836
438.2	0.00834
438.4	0.00818
438.6	0.00786
438.8	0.00748
439.0	0.00691
439.2	0.00628
439.4	0.00575
439.6	0.0051
439.8	0.00458
440.0	0.00421
440.2	0.00372
440.4	0.00342
440.6	0.00318
440.8	0.00296
441.0	0.00282
441.2	0.00277
441.4	0.00274
441.6	0.00286
441.8	0.00289
442.0	0.00309
442.2	0.00335
442.4	0.00372
442.6	0.00426
442.8	0.00501
443.0	0.006
443.2	0.00735
443.4	0.00895
443.6	0.01084
443.8	0.01277
444.0	0.01476
444.2	0.01631
444.4	0.01749
444.6	0.01829
444.8	0.01864
445.0	0.01837
445.2	0.01786
445.4	0.01677
445.6	0.01548
445.8	0.0142
446.0	0.01317
446.2	0.01214
446.4	0.01152
446.6	0.01112
446.8	0.01074
447.0	0.01056
447.2	0.01038
447.4	0.01022
447.6	0.01
447.8	0.00964
448.0	0.00916
448.2	0.00861
448.4	0.00805
448.6	0.00741
448.8	0.00666
449.0	0.00606
449.2	0.00549
449.4	0.00499
449.6	0.00457
449.8	0.00419
450.0	0.0039
450.2	0.00366
450.4	0.00354
450.6	0.00343
450.8	0.00335
451.0	0.00336
451.2	0.00337
451.4	0.00339
451.6	0.00334
451.8	0.00335
452.0	0.00339
452.2	0.00337
452.4	0.00332
452.6	0.00328
452.8	0.00316
453.0	0.00306
453.2	0.00291
453.4	0.00283
453.6	0.00265
453.8	0.00252
454.0	0.00239
454.2	0.00229
454.4	0.00219
454.6	0.00211
454.8	0.00206
455.0	0.00205
455.2	0.00198
455.4	0.002
455.6	0.00205
455.8	0.00213
456.0	0.0022
456.2	0.00228
456.4	0.00237
456.6	0.00248
456.8	0.00258
457.0	0.00263
457.2	0.00275
457.4	0.00278
457.6	0.00286
457.8	0.00286
458.0	0.0029
458.2	0.00286
458.4	0.0028
458.6	0.00276
458.8	0.0027
459.0	0.00263
459.2	0.00257
459.4	0.00251
459.6	0.00251
459.8	0.00246
460.0	0.00246
460.2	0.00244
460.4	0.00248
460.6	0.00255
460.8	0.00266
461.0	0.00273
461.2	0.00294
461.4	0.00312
461.6	0.00333
461.8	0.00356
462.0	0.00379
462.2	0.00409
462.4	0.00432
462.6	0.00462
462.8	0.00475
463.0	0.00494
463.2	0.00506
463.4	0.00514
463.6	0.0052
463.8	0.00517
464.0	0.00509
464.2	0.00499
464.4	0.00487
464.6	0.00481
464.8	0.00468
465.0	0.00457
465.2	0.00446
465.4	0.00441
465.6	0.00437
465.8	0.00437
466.0	0.00439
466.2	0.00449
466.4	0.00462
466.6	0.00472
466.8	0.00495
467.0	0.00519
467.2	0.00545
467.4	0.00573
467.6	0.00607
467.8	0.00646
468.0	0.00691
468.2	0.00737
468.4	0.0075
468.6	0.00746
468.8	0.00744
469.0	0.00739
469.2	0.00722
469.4	0.00696
469.6	0.0066
469.8	0.00638
470.0	0.00604
470.2	0.00569
470.4	0.0054
470.6	0.00517
470.8	0.00483
471.0	0.0047
471.2	0.00463
471.4	0.00449
471.6	0.00446
471.8	0.00449
472.0	0.00458
472.2	0.00475
472.4	0.00493
472.6	0.00515
472.8	0.00546
473.0	0.00584
473.2	0.00624
473.4	0.00671
473.6	0.00723
473.8	0.00768
474.0	0.00807
474.2	0.00854
474.4	0.00889
474.6	0.00927
474.8	0.00947
475.0	0.00956
475.2	0.00951
475.4	0.00955
475.6	0.0095
475.8	0.00922
476.0	0.00901
476.2	0.00883
476.4	0.00858
476.6	0.0084
476.8	0.00823
477.0	0.00813
477.2	0.00812
477.4	0.00818
477.6	0.0083
477.8	0.00856
478.0	0.00887
478.2	0.00922
478.4	0.00984
478.6	0.01036
478.8	0.01097
479.0	0.01188
479.2	0.01263
479.4	0.01358
479.6	0.0144
479.8	0.01526
480.0	0.01614
480.2	0.01675
480.4	0.01727
480.6	0.01768
480.8	0.01789
481.0	0.01792
481.2	0.01769
481.4	0.01744
481.6	0.01693
481.8	0.01627
482.0	0.0156
482.2	0.01485
482.4	0.01409
482.6	0.01334
482.8	0.01263
483.0	0.012
483.2	0.01143
483.4	0.01089
483.6	0.0105
483.8	0.0102
484.0	0.00991
484.2	0.00979
484.4	0.00968
484.6	0.00971
484.8	0.00974
485.0	0.00992
485.2	0.01019
485.4	0.0104
485.6	0.01078
485.8	0.01112
486.0	0.01147
486.2	0.0118
486.4	0.01209
486.6	0.0123
486.8	0.01237
487.0	0.01247
487.2	0.01234
487.4	0.0122
487.6	0.01188
487.8	0.01145
488.0	0.01098
488.2	0.01047
488.4	0.00992
488.6	0.00935
488.8	0.00882
489.0	0.00833
489.2	0.00786
489.4	0.00747
489.6	0.00716
489.8	0.00689
490.0	0.00676
490.2	0.00667
490.4	0.00668
490.6	0.00682
490.8	0.00699
491.0	0.00727
491.2	0.00764
491.4	0.00806
491.6	0.00863
491.8	0.00927
492.0	0.00995
492.2	0.01062
492.4	0.01132
492.6	0.01199
492.8	0.01255
493.0	0.01303
493.2	0.01348
493.4	0.01367
493.6	0.01374
493.8	0.01366
494.0	0.01343
494.2	0.01306
494.4	0.01266
494.6	0.01221
494.8	0.01162
495.0	0.01107
495.2	0.01054
495.4	0.01002
495.6	0.00954
495.8	0.00923
496.0	0.00898
496.2	0.00873
496.4	0.00865
496.6	0.00864
496.8	0.00879
497.0	0.00895
497.2	0.0092
497.4	0.00958
497.6	0.01003
497.8	0.01057
498.0	0.01122
498.2	0.01191
498.4	0.01265
498.6	0.01344
498.8	0.01429
499.0	0.01496
499.2	0.01571
499.4	0.01638
499.6	0.01681
499.8	0.01713
500.0	0.01725
500.2	0.01702
500.4	0.01666
500.6	0.01614
500.8	0.01553
501.0	0.01484
501.2	0.01408
501.4	0.01327
501.6	0.01248
501.8	0.01182
502.0	0.01104
502.2	0.01034
502.4	0.00983
502.6	0.00942
502.8	0.00902
503.0	0.00878
503.2	0.00856
503.4	0.00843
503.6	0.00839
503.8	0.00848
504.0	0.0086
504.2	0.00878
504.4	0.00904
504.6	0.00928
504.8	0.00959
505.0	0.01015
505.2	0.0105
505.4	0.01093
505.6	0.01127
505.8	0.01163
506.0	0.01195
506.2	0.01218
506.4	0.01224
506.6	0.01226
506.8	0.01213
507.0	0.01192
507.2	0.01167
507.4	0.01127
507.6	0.01087
507.8	0.0103
508.0	0.00977
508.2	0.00923
508.4	0.00868
508.6	0.00826
508.8	0.00788
509.0	0.0075
509.2	0.00726
509.4	0.00716
509.6	0.00711
509.8	0.00712
510.0	0.00721
510.2	0.00732
510.4	0.00757
510.6	0.00785
510.8	0.00815
511.0	0.00845
511.2	0.00879
511.4	0.00918
511.6	0.00957
511.8	0.00999
512.0	0.01031
512.2	0.01073
512.4	0.01106
512.6	0.01137
512.8	0.01162
513.0	0.01178
513.2	0.01182
513.4	0.01176
513.6	0.01163
513.8	0.0114
514.0	0.01107
514.2	0.01068
514.4	0.01021
514.6	0.00969
514.8	0.00915
515.0	0.00852
515.2	0.00799
515.4	0.00749
515.6	0.00697
515.8	0.00656
516.0	0.00629
516.2	0.00607
516.4	0.00589
516.6	0.00582
516.8	0.00578
517.0	0.00583
517.2	0.00595
517.4	0.00613
517.6	0.00641
517.8	0.00673
518.0	0.0071
518.2	0.00764
518.4	0.00817
518.6	0.00889
518.8	0.00963
519.0	0.01046
519.2	0.01133
519.4	0.01223
519.6	0.01308
519.8	0.01385
520.0	0.01447
520.2	0.01498
520.4	0.01534
520.6	0.01547
520.8	0.01543
521.0	0.01523
521.2	0.01474
521.4	0.01415
521.6	0.01334
521.8	0.0125
522.0	0.01162
522.2	0.01074
522.4	0.00984
522.6	0.00899
522.8	0.00826
523.0	0.00765
523.2	0.00715
523.4	0.00677
523.6	0.00644
523.8	0.00618
524.0	0.00608
524.2	0.00603
524.4	0.00599
524.6	0.00608
524.8	0.00608
525.0	0.00623
525.2	0.00644
525.4	0.00663
525.6	0.00693
525.8	0.00721
526.0	0.00756
526.2	0.00795
526.4	0.00831
526.6	0.00877
526.8	0.00912
527.0	0.00936
527.2	0.00959
527.4	0.00966
527.6	0.00974
527.8	0.00962
528.0	0.00938
528.2	0.00908
528.4	0.00861
528.6	0.00814
528.8	0.00759
529.0	0.00697
529.2	0.00632
529.4	0.00569
529.6	0.00517
529.8	0.0047
530.0	0.00436
530.2	0.00409
530.4	0.00389
530.6	0.00372
530.8	0.00358
531.0	0.0035
531.2	0.00341
531.4	0.00335
531.6	0.00328
531.8	0.00321
532.0	0.0031
532.2	0.00314
532.4	0.00313
532.6	0.0031
532.8	0.00309
533.0	0.00311
533.2	0.00322
533.4	0.00337
533.6	0.00352
533.8	0.00373
534.0	0.00393
534.2	0.00414
534.4	0.00431
534.6	0.00448
534.8	0.0045
535.0	0.00453
535.2	0.00444
535.4	0.00429
535.6	0.00411
535.8	0.00389
536.0	0.00359
536.2	0.00324
536.4	0.00289
536.6	0.0026
536.8	0.00233
537.0	0.00207
537.2	0.00186
537.4	0.00167
537.6	0.00151
537.8	0.00141
538.0	0.00133
538.2	0.00129
538.4	0.00122
538.6	0.00117
538.8	0.00114
539.0	0.00114
539.2	0.00117
539.4	0.00118
539.6	0.00123
539.8	0.00128
540.0	0.00138
540.2	0.00153
540.4	0.00176
540.6	0.00202
540.8	0.00228
541.0	0.00263
541.2	0.00293
541.4	0.00328
541.6	0.00352
541.8	0.00374
542.0	0.00389
542.2	0.00391
542.4	0.0039
542.6	0.00384
542.8	0.00369
543.0	0.00433
543.2	0.0046
543.4	0.00432
543.6	0.00406
543.8	0.00367
544.0	0.00334
544.2	0.00301
544.4	0.00273
544.6	0.00253
544.8	0.00237
545.0	0.00222
545.2	0.00215
545.4	0.00206
545.6	0.00202
545.8	0.00197
546.0	0.00197
546.2	0.00195
546.4	0.002
546.6	0.00199
546.8	0.00204
547.0	0.00214
547.2	0.00228
547.4	0.00242
547.6	0.0027
547.8	0.00305
548.0	0.00351
548.2	0.00401
548.4	0.00451
548.6	0.005
548.8	0.00534
549.0	0.00563
549.2	0.00584
549.4	0.00591
549.6	0.00589
549.8	0.00577
550.0	0.00558
550.2	0.00529
550.4	0.00492
550.6	0.00448
550.8	0.00399
551.0	0.00347
551.2	0.00301
551.4	0.00266
551.6	0.00238
551.8	0.00221
552.0	0.00207
552.2	0.00198
552.4	0.00191
552.6	0.00188
552.8	0.00188
553.0	0.00191
553.2	0.00193
553.4	0.00201
553.6	0.00218
553.8	0.00245
554.0	0.00298
554.2	0.00379
554.4	0.00474
554.6	0.00564
554.8	0.00633
555.0	0.00685
555.2	0.0071
555.4	0.0073
555.6	0.00731
555.8	0.00719
556.0	0.00695
556.2	0.00658
556.4	0.0061
556.6	0.00541
556.8	0.00463
557.0	0.0038
557.2	0.00302
557.4	0.00235
557.6	0.00189
557.8	0.00165
558.0	0.00147
558.2	0.00142
558.4	0.0014
558.6	0.00135
558.8	0.00133
559.0	0.00131
559.2	0.00129
559.4	0.0013
559.6	0.00131
559.8	0.00129
560.0	0.00128
560.2	0.00127
560.4	0.00127
560.6	0.00127
560.8	0.00127
561.0	0.00128
561.2	0.00128
561.4	0.00128
561.6	0.00128
561.8	0.00127
562.0	0.00129
562.2	0.00129
562.4	0.00129
562.6	0.0013
562.8	0.0013
563.0	0.0013
563.2	0.00132
563.4	0.00134
563.6	0.00133
563.8	0.00132
564.0	0.00135
564.2	0.00138
564.4	0.0014
564.6	0.00136
564.8	0.00136
565.0	0.00138
565.2	0.00139
565.4	0.00142
565.6	0.0014
565.8	0.00137
566.0	0.00138
566.2	0.00138
566.4	0.00136
566.6	0.00138
566.8	0.00136
567.0	0.00133
567.2	0.00134
567.4	0.00132
567.6	0.00132
567.8	0.00128
568.0	0.00132
568.2	0.0013
568.4	0.00129
568.6	0.00131
568.8	0.00129
569.0	0.00129
569.2	0.00127
569.4	0.00128
569.6	0.00128
569.8	0.00129
570.0	0.0013
570.2	0.0013
570.4	0.00131
570.6	0.0013
570.8	0.00131
571.0	0.0013
571.2	0.00133
571.4	0.0013
571.6	0.00131
571.8	0.00133
572.0	0.00133
572.2	0.00131
572.4	0.00132
572.6	0.00133
572.8	0.00132
573.0	0.00132
573.2	0.00135
573.4	0.00134
573.6	0.00133
573.8	0.00134
574.0	0.00135
574.2	0.00135
574.4	0.00135
574.6	0.00136
574.8	0.00137
575.0	0.00138
575.2	0.00136
575.4	0.0014
575.6	0.00139
575.8	0.00141
576.0	0.00139
576.2	0.00139
576.4	0.0014
576.6	0.0014
576.8	0.00142
577.0	0.00142
577.2	0.00144
577.4	0.00144
577.6	0.00145
577.8	0.00147
578.0	0.00148
578.2	0.00148
578.4	0.00146
578.6	0.00149
578.8	0.00148
579.0	0.00151
579.2	0.00151
579.4	0.00152
579.6	0.00151
579.8	0.00153
580.0	0.00153
580.2	0.00157
580.4	0.00159
580.6	0.00157
580.8	0.00159
581.0	0.00164
581.2	0.00159
581.4	0.00164
581.6	0.00165
581.8	0.00165
582.0	0.00166
582.2	0.00168
582.4	0.00174
582.6	0.00174
582.8	0.00176
583.0	0.00177
583.2	0.00178
583.4	0.00183
583.6	0.00185
583.8	0.00185
584.0	0.0019
584.2	0.00193
584.4	0.00196
584.6	0.002
584.8	0.00202
585.0	0.00205
585.2	0.00209
585.4	0.00215
585.6	0.00222
585.8	0.0023
586.0	0.00237
586.2	0.00245
586.4	0.00255
586.6	0.00266
586.8	0.00277
587.0	0.00296
587.2	0.00312
587.4	0.00333
587.6	0.00356
587.8	0.00383
588.0	0.0042
588.2	0.0046
588.4	0.00509
588.6	0.0057
588.8	0.0064
589.0	0.00727
589.2	0.00843
589.4	0.00976
589.6	0.01137
589.8	0.01343
590.0	0.01613
590.2	0.01942
590.4	0.02359
590.6	0.0287
590.8	0.03487
591.0	0.04278
591.2	0.05222
591.4	0.06334
591.6	0.07659
591.8	0.09177
592.0	0.10902
592.2	0.1283
592.4	0.14913
592.6	0.17042
592.8	0.19293
593.0	0.21668
593.2	0.24187
593.4	0.26681
593.6	0.29128
593.8	0.31424
594.0	0.33568
594.2	0.35651
594.4	0.3765
594.6	0.39343
594.8	0.40902
595.0	0.42164
595.2	0.43308
595.4	0.44281
595.6	0.44889
595.8	0.45436
596.0	0.45825
596.2	0.46125
596.4	0.46378
596.6	0.46434
596.8	0.46478
597.0	0.46574
597.2	0.46606
597.4	0.46658
597.6	0.46566
597.8	0.46558
598.0	0.46495
598.2	0.46522
598.4	0.46631
598.6	0.46875
598.8	0.47146
599.0	0.47501
599.2	0.48131
599.4	0.48958
599.6	0.50042
599.8	0.51473
600.0	0.53267
600.2	0.55276
600.4	0.57806
600.6	0.60448
600.8	0.63445
601.0	0.66573
601.2	0.69704
601.4	0.72812
601.6	0.76021
601.8	0.78923
602.0	0.81856
602.2	0.84628
602.4	0.87071
602.6	0.89078
602.8	0.90797
603.0	0.92105
603.2	0.93277
603.4	0.94186
603.6	0.94796
603.8	0.95119
604.0	0.95405
604.2	0.95764
604.4	0.9593
604.6	0.961
604.8	0.96045
605.0	0.96024
605.2	0.96057
605.4	0.95827
605.6	0.95753
605.8	0.96015
606.0	0.95943
606.2	0.95903
606.4	0.9606
606.6	0.96125
606.8	0.96385
607.0	0.96357
607.2	0.96524
607.4	0.96465
607.6	0.96691
607.8	0.96786
608.0	0.96927
608.2	0.97168
608.4	0.97007
608.6	0.96985
608.8	0.96962
609.0	0.9704
609.2	0.97023
609.4	0.96984
609.6	0.96928
609.8	0.96878
610.0	0.96685
610.2	0.96694
610.4	0.96671
610.6	0.96412
610.8	0.96321
611.0	0.96221
611.2	0.96172
611.4	0.96343
611.6	0.96513
611.8	0.96387
612.0	0.96363
612.2	0.96644
612.4	0.96879
612.6	0.97134
612.8	0.97456
613.0	0.97527
613.2	0.97469
613.4	0.977
613.6	0.97806
613.8	0.97642
614.0	0.97665
614.2	0.97569
614.4	0.97536
614.6	0.97403
614.8	0.97364
615.0	0.97215
615.2	0.97045
615.4	0.96894
615.6	0.96825
615.8	0.9681
616.0	0.96893
616.2	0.96744
616.4	0.96715
616.6	0.96554
616.8	0.96561
617.0	0.9668
617.2	0.96653
617.4	0.96632
617.6	0.96774
617.8	0.96949
618.0	0.96959
618.2	0.96965
618.4	0.96982
618.6	0.97257
618.8	0.97219
619.0	0.97238
619.2	0.97121
619.4	0.97141
619.6	0.97263
619.8	0.97369
620.0	0.97166
620.2	0.97024
620.4	0.96967
620.6	0.96787
620.8	0.96734
621.0	0.96645
621.2	0.96282
621.4	0.96056
621.6	0.95892
621.8	0.95823
622.0	0.95907
622.2	0.95813
622.4	0.95689
622.6	0.95601
622.8	0.95611
623.0	0.95718
623.2	0.95714
623.4	0.95676
623.6	0.95869
623.8	0.95898
624.0	0.96112
624.2	0.96297
624.4	0.96469
624.6	0.96504
624.8	0.96671
625.0	0.96725
625.2	0.96949
625.4	0.97203
625.6	0.97406
625.8	0.97515
626.0	0.97651
626.2	0.97642
626.4	0.97727
626.6	0.97707
626.8	0.97704
627.0	0.97824
627.2	0.9747
627.4	0.97371
627.6	0.9727
627.8	0.97129
628.0	0.97209
628.2	0.97094
628.4	0.97003
628.6	0.96891
628.8	0.96688
629.0	0.96614
629.2	0.96593
629.4	0.96671
629.6	0.96514
629.8	0.96423
630.0	0.96326
630.2	0.96558
630.4	0.9667
630.6	0.96598
630.8	0.96632
631.0	0.96636
631.2	0.9671
631.4	0.96675
631.6	0.96683
631.8	0.96711
632.0	0.96828
632.2	0.97071
632.4	0.97127
632.6	0.97316
632.8	0.97335
633.0	0.97132
633.2	0.97156
633.4	0.97197
633.6	0.9714
633.8	0.96949
634.0	0.9698
634.2	0.96961
634.4	0.96929
634.6	0.96823
634.8	0.9666
635.0	0.96559
635.2	0.96473
635.4	0.96282
635.6	0.96269
635.8	0.96197
636.0	0.96277
636.2	0.96192
636.4	0.9621
636.6	0.96173
636.8	0.96242
637.0	0.96432
637.2	0.96405
637.4	0.96391
637.6	0.9627
637.8	0.96225
638.0	0.96452
638.2	0.96548
638.4	0.96508
638.6	0.96635
638.8	0.96798
639.0	0.96876
639.2	0.96839
639.4	0.96895
639.6	0.96969
639.8	0.96955
640.0	0.97041
640.2	0.97109
640.4	0.96883
640.6	0.96798
640.8	0.96826
641.0	0.96783
641.2	0.96859
641.4	0.96816
641.6	0.96634
641.8	0.9642
642.0	0.96559
642.2	0.96427
642.4	0.96279
642.6	0.96147
642.8	0.95983
643.0	0.95896
643.2	0.95996
643.4	0.95984
643.6	0.96057
643.8	0.9608
644.0	0.96046
644.2	0.96159
644.4	0.96075
644.6	0.95943
644.8	0.96138
645.0	0.964
645.2	0.96633
645.4	0.96617
645.6	0.96601
645.8	0.96843
646.0	0.97185
646.2	0.97414
646.4	0.97658
646.6	0.97808
646.8	0.97932
647.0	0.97958
647.2	0.98225
647.4	0.98145
647.6	0.98082
647.8	0.98099
648.0	0.98316
648.2	0.98421
648.4	0.98319
648.6	0.98175
648.8	0.98127
649.0	0.97841
649.2	0.97848
649.4	0.97688
649.6	0.97349
649.8	0.9745
650.0	0.97292
650.2	0.97328
650.4	0.97335
650.6	0.97243
650.8	0.9717
651.0	0.96973
651.2	0.9694
651.4	0.96853
651.6	0.96891
651.8	0.96657
652.0	0.96597
652.2	0.96555
652.4	0.96637
652.6	0.96626
652.8	0.96704
653.0	0.96815
653.2	0.96844
653.4	0.9694
653.6	0.96953
653.8	0.97034
654.0	0.97151
654.2	0.97002
654.4	0.97249
654.6	0.97433
654.8	0.97421
655.0	0.97487
655.2	0.97748
655.4	0.97622
655.6	0.97603
655.8	0.97598
656.0	0.97491
656.2	0.9745
656.4	0.97466
656.6	0.97354
656.8	0.97066
657.0	0.96963
657.2	0.96907
657.4	0.96984
657.6	0.96608
657.8	0.96245
658.0	0.95995
658.2	0.9576
658.4	0.95619
658.6	0.95289
658.8	0.95311
659.0	0.95316
659.2	0.9527
659.4	0.95091
659.6	0.95087
659.8	0.95178
660.0	0.95115
660.2	0.95033
660.4	0.94946
660.6	0.94898
660.8	0.9501
661.0	0.95088
661.2	0.95245
661.4	0.95463
661.6	0.95742
661.8	0.95883
662.0	0.95993
662.2	0.96043
662.4	0.95963
662.6	0.96235
662.8	0.96485
663.0	0.96817
663.2	0.97049
663.4	0.97186
663.6	0.97145
663.8	0.9719
664.0	0.97506
664.2	0.97789
664.4	0.97778
664.6	0.97663
664.8	0.97678
665.0	0.97853
665.2	0.97974
665.4	0.97872
665.6	0.98054
665.8	0.98054
666.0	0.98056
666.2	0.97685
666.4	0.97635
666.6	0.97621
666.8	0.97712
667.0	0.97756
667.2	0.97602
667.4	0.97495
667.6	0.9741
667.8	0.97194
668.0	0.97226
668.2	0.97234
668.4	0.97264
668.6	0.97151
668.8	0.97074
669.0	0.97235
669.2	0.97551
669.4	0.97499
669.6	0.97489
669.8	0.97522
670.0	0.97682
670.2	0.97672
670.4	0.97774
670.6	0.97912
670.8	0.98015
671.0	0.97938
671.2	0.98015
671.4	0.98134
671.6	0.98409
671.8	0.98445
672.0	0.98535
672.2	0.98642
672.4	0.98618
672.6	0.98388
672.8	0.98246
673.0	0.98242
673.2	0.97991
673.4	0.97852
673.6	0.97704
673.8	0.97703
674.0	0.97537
674.2	0.97364
674.4	0.97213
674.6	0.97061
674.8	0.96772
675.0	0.96474
675.2	0.96362
675.4	0.96208
675.6	0.96045
675.8	0.95766
676.0	0.95656
676.2	0.95746
676.4	0.95781
676.6	0.95608
676.8	0.95609
677.0	0.95431
677.2	0.95474
677.4	0.95467
677.6	0.95557
677.8	0.95562
678.0	0.95718
678.2	0.95909
678.4	0.96153
678.6	0.96406
678.8	0.96371
679.0	0.96582
679.2	0.96637
679.4	0.96926
679.6	0.97069
679.8	0.97027
680.0	0.97292
680.2	0.97343
680.4	0.97337
680.6	0.97273
680.8	0.97208
681.0	0.97398
681.2	0.97817
681.4	0.97814
681.6	0.97869
681.8	0.97985
682.0	0.97951
682.2	0.97941
682.4	0.97775
682.6	0.97716
682.8	0.97688
683.0	0.97675
683.2	0.97393
683.4	0.97165
683.6	0.96993
683.8	0.97034
684.0	0.97077
684.2	0.97184
684.4	0.97008
684.6	0.96892
684.8	0.96765
685.0	0.9682
685.2	0.96947
685.4	0.97184
685.6	0.96828
685.8	0.96714
686.0	0.96847
686.2	0.96843
686.4	0.96922
686.6	0.97012
686.8	0.97064
687.0	0.97071
687.2	0.97071
687.4	0.97175
687.6	0.97385
687.8	0.97427
688.0	0.97365
688.2	0.97668
688.4	0.97801
688.6	0.97785
688.8	0.97957
689.0	0.98173
689.2	0.98253
689.4	0.98469
689.6	0.98719
689.8	0.98772
690.0	0.98685
690.2	0.98699
690.4	0.98731
690.6	0.98736
690.8	0.98642
691.0	0.98623
691.2	0.98501
691.4	0.98258
691.6	0.9828
691.8	0.98252
692.0	0.97971
692.2	0.9789
692.4	0.97951
692.6	0.98124
692.8	0.98033
693.0	0.97794
693.2	0.97495
693.4	0.97215
693.6	0.97018
693.8	0.9696
694.0	0.96594
694.2	0.96362
694.4	0.96023
694.6	0.95867
694.8	0.95947
695.0	0.95831
695.2	0.95859
695.4	0.95708
695.6	0.95764
695.8	0.95734
696.0	0.9568
696.2	0.95783
696.4	0.9588
696.6	0.95722
696.8	0.95716
697.0	0.96013
697.2	0.95821
697.4	0.9588
697.6	0.9603
697.8	0.96179
698.0	0.96238
698.2	0.96386
698.4	0.96468
698.6	0.96595
698.8	0.96952
699.0	0.97111
699.2	0.97267
699.4	0.97058
699.6	0.9711
699.8	0.97435
700.0	0.97464
700.2	0.97505
700.4	0.97575
700.6	0.97752
700.8	0.9782
701.0	0.97719
701.2	0.97914
701.4	0.9776
701.6	0.9788
701.8	0.98046
702.0	0.98121
702.2	0.9804
702.4	0.97686
702.6	0.97513
702.8	0.97346
703.0	0.97428
703.2	0.97297
703.4	0.9701
703.6	0.96943
703.8	0.96783
704.0	0.96515
704.2	0.96355
704.4	0.96298
704.6	0.96302
704.8	0.96348
705.0	0.96412
705.2	0.9636
705.4	0.9629
705.6	0.96311
705.8	0.96286
706.0	0.96417
706.2	0.96588
706.4	0.96603
706.6	0.96644
706.8	0.96643
707.0	0.96771
707.2	0.96771
707.4	0.96854
707.6	0.96815
707.8	0.96979
708.0	0.97217
708.2	0.9726
708.4	0.97449
708.6	0.97556
708.8	0.97541
709.0	0.97562
709.2	0.97785
709.4	0.97928
709.6	0.97982
709.8	0.98088
710.0	0.97989
710.2	0.97935
710.4	0.98026
710.6	0.98155
710.8	0.98218
711.0	0.98327
711.2	0.98293
711.4	0.9821
711.6	0.98236
711.8	0.98036
712.0	0.97864
712.2	0.97743
712.4	0.9758
712.6	0.97519
712.8	0.97493
713.0	0.97252
713.2	0.97026
713.4	0.96902
713.6	0.96732
713.8	0.96628
714.0	0.96382
714.2	0.96324
714.4	0.96139
714.6	0.96038
714.8	0.96236
715.0	0.96097
715.2	0.95999
715.4	0.96066
715.6	0.96043
715.8	0.95802
716.0	0.95666
716.2	0.95675
716.4	0.95706
716.6	0.95747
716.8	0.95817
717.0	0.95921
717.2	0.96036
717.4	0.96201
717.6	0.96357
717.8	0.96322
718.0	0.96675
718.2	0.96697
718.4	0.96729
718.6	0.96737
718.8	0.97
719.0	0.97207
719.2	0.97487
719.4	0.97655
719.6	0.97816
719.8	0.97856
720.0	0.97687
720.2	0.97626
720.4	0.97836
720.6	0.97987
720.8	0.98093
721.0	0.9809
721.2	0.98123
721.4	0.98114
721.6	0.98118
721.8	0.98089
722.0	0.97932
722.2	0.97871
722.4	0.9769
722.6	0.97547
722.8	0.97409
723.0	0.97186
723.2	0.97026
723.4	0.96922
723.6	0.96945
723.8	0.96855
724.0	0.96667
724.2	0.96476
724.4	0.96502
724.6	0.96615
724.8	0.96566
725.0	0.9647
725.2	0.96367
725.4	0.96088
725.6	0.95957
725.8	0.95795
726.0	0.95615
726.2	0.95601
726.4	0.95804
726.6	0.95868
726.8	0.95833
727.0	0.95742
727.2	0.95619
727.4	0.95757
727.6	0.95951
727.8	0.95774
728.0	0.95809
728.2	0.95918
728.4	0.95982
728.6	0.96
728.8	0.96268
729.0	0.96647
729.2	0.96658
729.4	0.96811
729.6	0.96895
729.8	0.97144
730.0	0.97385
730.2	0.97496
730.4	0.97451
730.6	0.97508
730.8	0.97601
731.0	0.97792
731.2	0.97905
731.4	0.97961
731.6	0.97939
731.8	0.98016
732.0	0.97907
732.2	0.97779
732.4	0.97822
732.6	0.97949
732.8	0.98071
733.0	0.97898
733.2	0.97891
733.4	0.97765
733.6	0.9778
733.8	0.97795
734.0	0.97634
734.2	0.97506
734.4	0.97601
734.6	0.97609
734.8	0.97504
735.0	0.97402
735.2	0.97403
735.4	0.97157
735.6	0.9671
735.8	0.96705
736.0	0.96851
736.2	0.96764
736.4	0.96628
736.6	0.96579
736.8	0.96472
737.0	0.96446
737.2	0.96477
737.4	0.9627
737.6	0.96263
737.8	0.96572
738.0	0.96961
738.2	0.96807
738.4	0.96961
738.6	0.96914
738.8	0.96869
739.0	0.96634
739.2	0.968
739.4	0.9691
739.6	0.96837
739.8	0.96803
740.0	0.96817
740.2	0.96928
740.4	0.97246
740.6	0.97556
740.8	0.97625
741.0	0.97638
741.2	0.97648
741.4	0.97509
741.6	0.97747
741.8	0.98062
742.0	0.98355
742.2	0.98308
742.4	0.98284
742.6	0.98088
742.8	0.98092
743.0	0.98134
743.2	0.98276
743.4	0.98299
743.6	0.98136
743.8	0.98005
744.0	0.97968
744.2	0.97941
744.4	0.97838
744.6	0.97693
744.8	0.97595
745.0	0.97366
745.2	0.97162
745.4	0.97036
745.6	0.96979
745.8	0.96784
746.0	0.9669
746.2	0.96442
746.4	0.96319
746.6	0.96153
746.8	0.96002
747.0	0.96016
747.2	0.95921
747.4	0.95894
747.6	0.96033
747.8	0.95852
748.0	0.95668
748.2	0.95584
748.4	0.95507
748.6	0.95673
748.8	0.95685
749.0	0.95529
749.2	0.95229
749.4	0.9533
749.6	0.95447
749.8	0.95361
750.0	0.95357
750.2	0.95479
750.4	0.95646
750.6	0.95851
750.8	0.95759
751.0	0.95931
751.2	0.95954
751.4	0.96141
751.6	0.96425
751.8	0.96538
752.0	0.96667
752.2	0.96739
752.4	0.96968
752.6	0.97204
752.8	0.97118
753.0	0.97158
753.2	0.97425
753.4	0.97529
753.6	0.97706
753.8	0.97877
754.0	0.97859
754.2	0.9782
754.4	0.97811
754.6	0.98099
754.8	0.98169
755.0	0.98072
755.2	0.98021
755.4	0.98171
755.6	0.98115
755.8	0.97986
756.0	0.97779
756.2	0.9773
756.4	0.97894
756.6	0.98073
756.8	0.98284
757.0	0.98337
757.2	0.98039
757.4	0.97859
757.6	0.97861
757.8	0.97932
758.0	0.97882
758.2	0.97678
758.4	0.97629
758.6	0.9771
758.8	0.97642
759.0	0.9749
759.2	0.9729
759.4	0.97339
759.6	0.97117
759.8	0.97157
760.0	0.97095
760.2	0.97034
760.4	0.96989
760.6	0.97006
760.8	0.97112
761.0	0.97142
761.2	0.97025
761.4	0.97025
761.6	0.97222
761.8	0.97247
762.0	0.97414
762.2	0.97591
762.4	0.97635
762.6	0.97555
762.8	0.97532
763.0	0.97751
763.2	0.97752
763.4	0.97835
763.6	0.9806
763.8	0.9833
764.0	0.98132
764.2	0.98256
764.4	0.98334
764.6	0.98424
764.8	0.98534
765.0	0.98409
765.2	0.98331
765.4	0.98359
765.6	0.98441
765.8	0.98462
766.0	0.98609
766.2	0.98826
766.4	0.98698
766.6	0.98652
766.8	0.98733
767.0	0.98728
767.2	0.98658
767.4	0.98689
767.6	0.9863
767.8	0.986
768.0	0.98279
768.2	0.98209
768.4	0.98025
768.6	0.97951
768.8	0.97777
769.0	0.97462
769.2	0.9738
769.4	0.97378
769.6	0.97108
769.8	0.9727
770.0	0.97216
770.2	0.96974
770.4	0.96775
770.6	0.96641
770.8	0.96636
771.0	0.96725
771.2	0.9662
771.4	0.96657
771.6	0.96765
771.8	0.96725
772.0	0.96654
772.2	0.96303
772.4	0.96335
772.6	0.96478
772.8	0.96704
773.0	0.97076
773.2	0.97062
773.4	0.96748
773.6	0.9661
773.8	0.96614
774.0	0.96586
774.2	0.96533
774.4	0.96382
774.6	0.96441
774.8	0.9647
775.0	0.96603
775.2	0.96706
775.4	0.96903
775.6	0.97114
775.8	0.97163
776.0	0.97069
776.2	0.97312
776.4	0.97495
776.6	0.97667
776.8	0.97706
777.0	0.97404
777.2	0.97477
777.4	0.97456
777.6	0.97535
777.8	0.97463
778.0	0.97521
778.2	0.97394
778.4	0.97326
778.6	0.97172
778.8	0.97297
779.0	0.97394
779.2	0.97352
779.4	0.97556
779.6	0.97172
779.8	0.97018
780.0	0.96992
780.2	0.97115
780.4	0.97144
780.6	0.97099
780.8	0.96995
781.0	0.96947
781.2	0.96933
781.4	0.96675
781.6	0.96681
781.8	0.96745
782.0	0.96938
782.2	0.96951
782.4	0.96777
782.6	0.96599
782.8	0.96497
783.0	0.96457
783.2	0.96194
783.4	0.9621
783.6	0.96314
783.8	0.96103
784.0	0.96166
784.2	0.96057
784.4	0.95945
784.6	0.96024
784.8	0.95872
785.0	0.96014
785.2	0.96094
785.4	0.96162
785.6	0.9629
785.8	0.96409
786.0	0.96274
786.2	0.96204
786.4	0.9638
786.6	0.96489
786.8	0.96502
787.0	0.96694
787.2	0.96583
787.4	0.9645
787.6	0.96721
787.8	0.97049
788.0	0.97156
788.2	0.97297
788.4	0.97402
788.6	0.97464
788.8	0.97544
789.0	0.97462
789.2	0.97436
789.4	0.97455
789.6	0.97848
789.8	0.98299
790.0	0.98371
790.2	0.98369
790.4	0.98393
790.6	0.98552
790.8	0.98404
791.0	0.98479
791.2	0.9871
791.4	0.98949
791.6	0.98933
791.8	0.98702
792.0	0.98666
792.2	0.98598
792.4	0.98654
792.6	0.98485
792.8	0.98411
793.0	0.98391
793.2	0.98494
793.4	0.98384
793.6	0.98446
793.8	0.98447
794.0	0.98057
794.2	0.98051
794.4	0.97929
794.6	0.97594
794.8	0.9742
795.0	0.97472
795.2	0.9748
795.4	0.97347
795.6	0.973
795.8	0.9736
796.0	0.97154
796.2	0.97175
796.4	0.97086
796.6	0.97105
796.8	0.9713
797.0	0.97389
797.2	0.97236
797.4	0.97002
797.6	0.96984
797.8	0.96927
798.0	0.96712
798.2	0.96497
798.4	0.96284
798.6	0.96254
798.8	0.96406
799.0	0.96567
799.2	0.9648
799.4	0.96407
799.6	0.96335
799.8	0.96196
800.0	0.96255
800.2	0.96283
800.4	0.96477
800.6	0.96633
800.8	0.96647
801.0	0.96831
801.2	0.97028
801.4	0.96918
801.6	0.97213
801.8	0.97472
802.0	0.9739
802.2	0.97512
802.4	0.97382
802.6	0.9721
802.8	0.97327
803.0	0.97489
803.2	0.9739
803.4	0.97445
803.6	0.97569
803.8	0.97503
804.0	0.97605
804.2	0.97663
804.4	0.97846
804.6	0.98033
804.8	0.98053
805.0	0.98111
805.2	0.98114
805.4	0.9802
805.6	0.97967
805.8	0.97961
806.0	0.98205
806.2	0.98212
806.4	0.98278
806.6	0.98227
806.8	0.97994
807.0	0.97757
807.2	0.97653
807.4	0.97465
807.6	0.9752
807.8	0.97469
808.0	0.97259
808.2	0.97259
808.4	0.97244
808.6	0.96909
808.8	0.96655
809.0	0.96613
809.2	0.96733
809.4	0.96801
809.6	0.96817
809.8	0.96659
810.0	0.96505
810.2	0.96489
810.4	0.96495
810.6	0.96335
810.8	0.96174
811.0	0.96369
811.2	0.96368
811.4	0.96244
811.6	0.96148
811.8	0.96252
812.0	0.96518
812.2	0.96449
812.4	0.96531
812.6	0.96491
812.8	0.96537
813.0	0.9655
813.2	0.96622
813.4	0.96509
813.6	0.96396
813.8	0.96576
814.0	0.96728
814.2	0.96763
814.4	0.96835
814.6	0.96757
814.8	0.9678
815.0	0.96853
815.2	0.96994
815.4	0.97077
815.6	0.97123
815.8	0.9713
816.0	0.97414
816.2	0.97489
816.4	0.97531
816.6	0.97519
816.8	0.97557
817.0	0.97501
817.2	0.97553
817.4	0.97845
817.6	0.97935
817.8	0.98154
818.0	0.9814
818.2	0.98264
818.4	0.98323
818.6	0.9843
818.8	0.98505
819.0	0.98592
819.2	0.98689
819.4	0.98664
819.6	0.98559
819.8	0.98476
820.0	0.98434
820.2	0.9828
820.4	0.98402
820.6	0.98292
820.8	0.98303
821.0	0.98418
821.2	0.98319
821.4	0.98132
821.6	0.98074
821.8	0.97901
822.0	0.97795
822.2	0.97761
822.4	0.97545
822.6	0.97399
822.8	0.9752
823.0	0.9774
823.2	0.97667
823.4	0.97498
823.6	0.97402
823.8	0.97306
824.0	0.97161
824.2	0.97221
824.4	0.97414
824.6	0.97506
824.8	0.97352
825.0	0.97095
825.2	0.9703
825.4	0.97023
825.6	0.97081
825.8	0.96899
826.0	0.96778
826.2	0.9678
826.4	0.96773
826.6	0.96797
826.8	0.96628
827.0	0.96619
827.2	0.96532
827.4	0.9651
827.6	0.9662
827.8	0.96692
828.0	0.97032
828.2	0.97209
828.4	0.9724
828.6	0.97311
828.8	0.97311
829.0	0.97188
829.2	0.97058
829.4	0.96994
829.6	0.97159
829.8	0.97356
830.0	0.97381
830.2	0.97431
830.4	0.97314
830.6	0.973
830.8	0.96948
831.0	0.96929
831.2	0.97219
831.4	0.97385
831.6	0.97318
831.8	0.97307
832.0	0.97585
832.2	0.97761
832.4	0.97833
832.6	0.97687
832.8	0.97538
833.0	0.97376
833.2	0.97409
833.4	0.97437
833.6	0.97328
833.8	0.97405
834.0	0.97332
834.2	0.97335
834.4	0.97355
834.6	0.97304
834.8	0.97148
835.0	0.97073
835.2	0.97008
835.4	0.96844
835.6	0.96812
835.8	0.96757
836.0	0.96789
836.2	0.96919
836.4	0.96926
836.6	0.96924
836.8	0.96912
837.0	0.96852
837.2	0.96887
837.4	0.9678
837.6	0.96704
837.8	0.96843
838.0	0.96937
838.2	0.9683
838.4	0.9663
838.6	0.96397
838.8	0.96262
839.0	0.96248
839.2	0.96242
839.4	0.96215
839.6	0.9612
839.8	0.96267
840.0	0.96233
840.2	0.96132
840.4	0.96326
840.6	0.963
840.8	0.96086
841.0	0.96229
841.2	0.96428
841.4	0.96387
841.6	0.96339
841.8	0.96322
842.0	0.96371
842.2	0.96454
842.4	0.96589
842.6	0.968
842.8	0.96971
843.0	0.96904
843.2	0.96856
843.4	0.96786
843.6	0.96894
843.8	0.97111
844.0	0.97121
844.2	0.96985
844.4	0.96957
844.6	0.97044
844.8	0.97081
845.0	0.97174
845.2	0.97128
845.4	0.97166
845.6	0.97336
845.8	0.97542
846.0	0.97658
846.2	0.97742
846.4	0.97787
846.6	0.97687
846.8	0.97679
847.0	0.97504
847.2	0.97424
847.4	0.97624
847.6	0.97592
847.8	0.97403
848.0	0.97177
848.2	0.96829
848.4	0.96832
848.6	0.96921
848.8	0.96973
849.0	0.96907
849.2	0.96951
849.4	0.97007
849.6	0.96899
849.8	0.96904
850.0	0.96754
850.2	0.96772
850.4	0.96704
850.6	0.96444
850.8	0.96404
851.0	0.96568
851.2	0.96584
851.4	0.96435
851.6	0.96281
851.8	0.96137
852.0	0.96067
852.2	0.96158
852.4	0.9625
852.6	0.96201
852.8	0.95912
853.0	0.95834
853.2	0.95814
853.4	0.95726
853.6	0.95556
853.8	0.95478
854.0	0.95371
854.2	0.95641
854.4	0.95651
854.6	0.95652
854.8	0.95706
855.0	0.95679
855.2	0.95553
855.4	0.95788
855.6	0.9589
855.8	0.96028
856.0	0.95796
856.2	0.95797
856.4	0.95857
856.6	0.95864
856.8	0.96015
857.0	0.95867
857.2	0.95612
857.4	0.95575
857.6	0.95733
857.8	0.95863
858.0	0.9578
858.2	0.9582
858.4	0.96083
858.6	0.96344
858.8	0.9654
859.0	0.96734
859.2	0.96687
859.4	0.96679
859.6	0.96838
859.8	0.96953
860.0	0.97035
860.2	0.97192
860.4	0.97031
860.6	0.97004
860.8	0.97044
861.0	0.96918
861.2	0.96798
861.4	0.9686
861.6	0.96709
861.8	0.96714
862.0	0.96991
862.2	0.97115
862.4	0.97226
862.6	0.97353
862.8	0.97591
863.0	0.97504
863.2	0.97151
863.4	0.97116
863.6	0.97265
863.8	0.97072
864.0	0.97065
864.2	0.97077
864.4	0.96998
864.6	0.9677
864.8	0.96603
865.0	0.96571
865.2	0.96523
865.4	0.96366
865.6	0.96186
865.8	0.96299
866.0	0.96246
866.2	0.9597
866.4	0.95949
866.6	0.96067
866.8	0.95981
867.0	0.95796
867.2	0.95474
867.4	0.95216
867.6	0.95143
867.8	0.95087
868.0	0.94959
868.2	0.94925
868.4	0.94968
868.6	0.95012
868.8	0.95159
869.0	0.95247
869.2	0.95061
869.4	0.95172
869.6	0.95244
869.8	0.95149
870.0	0.95122
870.2	0.95289
870.4	0.95246
870.6	0.9518
870.8	0.9488
871.0	0.94919
871.2	0.94891
871.4	0.94823
871.6	0.94972
871.8	0.95169
872.0	0.95444
872.2	0.95334
872.4	0.95122
872.6	0.95305
872.8	0.95522
873.0	0.95411
873.2	0.95577
873.4	0.95753
873.6	0.95837
873.8	0.95882
874.0	0.96068
874.2	0.95958
874.4	0.9589
874.6	0.95918
874.8	0.96092
875.0	0.96425
875.2	0.96712
875.4	0.96969
875.6	0.97008
875.8	0.97125
876.0	0.97383
876.2	0.97443
876.4	0.97317
876.6	0.97217
876.8	0.97113
877.0	0.96896
877.2	0.96832
877.4	0.9687
877.6	0.96988
877.8	0.96973
878.0	0.97061
878.2	0.97117
878.4	0.97159
878.6	0.97156
878.8	0.97152
879.0	0.96956
879.2	0.96935
879.4	0.97045
879.6	0.97015
879.8	0.97213
880.0	0.97298
880.2	0.97087
880.4	0.96822
880.6	0.96827
880.8	0.96871
881.0	0.96755
881.2	0.96712
881.4	0.96643
881.6	0.96632
881.8	0.96699
882.0	0.9662
882.2	0.9625
882.4	0.96073
882.6	0.96075
882.8	0.96145
883.0	0.96147
883.2	0.96119
883.4	0.96125
883.6	0.95995
883.8	0.95793
884.0	0.95798
884.2	0.95746
884.4	0.95895
884.6	0.95842
884.8	0.95774
885.0	0.95876
885.2	0.96059
885.4	0.96124
885.6	0.95963
885.8	0.96044
886.0	0.95801
886.2	0.95764
886.4	0.95736
886.6	0.9566
886.8	0.95606
887.0	0.95889
887.2	0.96138
887.4	0.96138
887.6	0.95972
887.8	0.96095
888.0	0.96014
888.2	0.96033
888.4	0.96335
888.6	0.96306
888.8	0.96173
889.0	0.96126
889.2	0.96188
889.4	0.96233
889.6	0.96108
889.8	0.96038
890.0	0.96293
890.2	0.96586
890.4	0.96673
890.6	0.96587
890.8	0.96462
891.0	0.96557
891.2	0.96785
891.4	0.97041
891.6	0.96974
891.8	0.96986
892.0	0.96859
892.2	0.97039
892.4	0.97312
892.6	0.97508
892.8	0.97669
893.0	0.9767
893.2	0.97606
893.4	0.97476
893.6	0.97534
893.8	0.98017
894.0	0.98127
894.2	0.98158
894.4	0.98339
894.6	0.98257
894.8	0.98195
895.0	0.98151
895.2	0.97942
895.4	0.97954
895.6	0.98094
895.8	0.97918
896.0	0.97783
896.2	0.9777
896.4	0.97886
896.6	0.97915
896.8	0.97657
897.0	0.97597
897.2	0.97445
897.4	0.97453
897.6	0.97368
897.8	0.97148
898.0	0.96869
898.2	0.96935
898.4	0.9681
898.6	0.96836
898.8	0.9692
899.0	0.96663
899.2	0.96551
899.4	0.96579
899.6	0.96422
899.8	0.96337
900.0	0.96349
900.2	0.96211
900.4	0.96026
900.6	0.95926
900.8	0.95885
901.0	0.95562
901.2	0.95389
901.4	0.95333
901.6	0.95241
901.8	0.95432
902.0	0.95443
902.2	0.95366
902.4	0.95246
902.6	0.95287
902.8	0.95528
903.0	0.9567
903.2	0.95645
903.4	0.95524
903.6	0.95512
903.8	0.95592
904.0	0.95466
904.2	0.95545
904.4	0.95522
904.6	0.95486
904.8	0.95516
905.0	0.95459
905.2	0.9549
905.4	0.95494
905.6	0.95593
905.8	0.95634
906.0	0.9585
906.2	0.95968
906.4	0.96035
906.6	0.95902
906.8	0.95899
907.0	0.96048
907.2	0.96161
907.4	0.96149
907.6	0.96016
907.8	0.95895
908.0	0.95931
908.2	0.96231
908.4	0.96469
908.6	0.96457
908.8	0.96393
909.0	0.96155
909.2	0.96382
909.4	0.96706
909.6	0.96774
909.8	0.96796
910.0	0.96742
910.2	0.96808
910.4	0.96989
910.6	0.9718
910.8	0.97114
911.0	0.96676
911.2	0.96747
911.4	0.96748
911.6	0.96944
911.8	0.96953
912.0	0.97015
912.2	0.97089
912.4	0.9735
912.6	0.97246
912.8	0.9702
913.0	0.96954
913.2	0.97103
913.4	0.96966
913.6	0.96771
913.8	0.96703
914.0	0.96577
914.2	0.9658
914.4	0.96618
914.6	0.96735
914.8	0.96744
915.0	0.96653
915.2	0.9666
915.4	0.96722
915.6	0.96398
915.8	0.96403
916.0	0.96525
916.2	0.96597
916.4	0.96517
916.6	0.96293
916.8	0.96392
917.0	0.96517
917.2	0.96372
917.4	0.9635
917.6	0.96381
917.8	0.96368
918.0	0.96336
918.2	0.96409
918.4	0.96196
918.6	0.96234
918.8	0.96471
919.0	0.96753
919.2	0.96714
919.4	0.96579
919.6	0.96478
919.8	0.96498
920.0	0.96348
920.2	0.96128
920.4	0.96041
920.6	0.96156
920.8	0.96351
921.0	0.96645
921.2	0.96908
921.4	0.97031
921.6	0.96985
921.8	0.96897
922.0	0.96886
922.2	0.96816
922.4	0.96814
922.6	0.96997
922.8	0.97194
923.0	0.97189
923.2	0.97383
923.4	0.97651
923.6	0.97948
923.8	0.97799
924.0	0.97805
924.2	0.9766
924.4	0.97743
924.6	0.97984
924.8	0.9818
925.0	0.98219
925.2	0.98134
925.4	0.98094
925.6	0.9826
925.8	0.98479
926.0	0.98354
926.2	0.98077
926.4	0.98147
926.6	0.98302
926.8	0.98174
927.0	0.98165
927.2	0.97966
927.4	0.98009
927.6	0.98183
927.8	0.98209
928.0	0.98178
928.2	0.98098
928.4	0.97896
928.6	0.97707
928.8	0.97825
929.0	0.97642
929.2	0.9761
929.4	0.97541
929.6	0.97597
929.8	0.97376
930.0	0.97021
930.2	0.96718
930.4	0.96642
930.6	0.9667
930.8	0.96712
931.0	0.96859
931.2	0.96799
931.4	0.96734
931.6	0.96748
931.8	0.9702
932.0	0.96818
932.2	0.96913
932.4	0.96968
932.6	0.96919
932.8	0.96714
933.0	0.96766
933.2	0.96572
933.4	0.96018
933.6	0.95947
933.8	0.95948
934.0	0.95864
934.2	0.95712
934.4	0.95697
934.6	0.95577
934.8	0.95544
935.0	0.95639
935.2	0.95535
935.4	0.9555
935.6	0.95323
935.8	0.95425
936.0	0.95534
936.2	0.95632
936.4	0.957
936.6	0.95634
936.8	0.95471
937.0	0.95531
937.2	0.95392
937.4	0.95276
937.6	0.95622
937.8	0.9568
938.0	0.95569
938.2	0.95607
938.4	0.95409
938.6	0.9561
938.8	0.95841
939.0	0.96042
939.2	0.96036
939.4	0.96275
939.6	0.96296
939.8	0.96217
940.0	0.96413
940.2	0.96329
940.4	0.9613
940.6	0.96268
940.8	0.965
941.0	0.96583
941.2	0.96798
941.4	0.97009
941.6	0.97131
941.8	0.97137
942.0	0.97192
942.2	0.96783
942.4	0.96895
942.6	0.96897
942.8	0.9637
943.0	0.966
943.2	0.96639
943.4	0.9647
943.6	0.96484
943.8	0.96415
944.0	0.96185
944.2	0.96297
944.4	0.96591
944.6	0.97076
944.8	0.97202
945.0	0.97157
945.2	0.97367
945.4	0.97347
945.6	0.97193
945.8	0.97252
946.0	0.96986
946.2	0.96938
946.4	0.97298
946.6	0.97324
946.8	0.96931
947.0	0.96712
947.2	0.96686
947.4	0.96891
947.6	0.96799
947.8	0.96691
948.0	0.96766
948.2	0.96422
948.4	0.96592
948.6	0.9661
948.8	0.96527
949.0	0.96377
949.2	0.96586
949.4	0.96211
949.6	0.96387
949.8	0.96537
950.0	0.96484
950.2	0.96284
950.4	0.96242
950.6	0.96167
950.8	0.96024
951.0	0.95896
951.2	0.96043
951.4	0.96252
951.6	0.96165
951.8	0.96297
952.0	0.96403
952.2	0.96108
952.4	0.96141
952.6	0.96252
952.8	0.96021
953.0	0.95916
953.2	0.95928
953.4	0.96018
953.6	0.96011
953.8	0.96186
954.0	0.95933
954.2	0.95852
954.4	0.95659
954.6	0.96
954.8	0.95997
955.0	0.96073
955.2	0.9625
955.4	0.961
955.6	0.96332
955.8	0.96258
956.0	0.96451
956.2	0.96354
956.4	0.9622
956.6	0.9618
956.8	0.96427
957.0	0.96496
957.2	0.9661
957.4	0.96571
957.6	0.96895
957.8	0.97049
958.0	0.96774
958.2	0.9666
958.4	0.96728
958.6	0.96617
958.8	0.96465
959.0	0.96519
959.2	0.96371
959.4	0.96203
959.6	0.96582
959.8	0.96521
960.0	0.96896